Folder: capacityCalculator

Note: Readme.md
## 去爬山么，傻逼？六峰山 山顶等你嗷

- 就你会写readme是么？？我写的项目就不是给别人看的懂不？？
- 这个项目你看得懂？ 你看得懂我把电脑吃了

### 叫叫叫 天天叫 真是属实铁five

File: cv-2.csv
May 29, 2020   20:40:20
Cyclic Voltammetry
File: h:\mof-crpyz-edlc(pseduca)\6-3electrode-1m emimcl\1-12.6mg-cm2-0.8\cv-2.csv
Data Source:  Experiment
Instrument Model:  CHI660E
Header:
Note:

Init E (V) = 0
High E (V) = 0.8
Low E (V) = 0
Init P/N = P
Scan Rate (V/s) = 0.002
Segment = 4
Sample Interval (V) = 0.001
Quiet Time (sec) = 2
Sensitivity (A/V) = 0.001

Segment 1:
Segment 2:

Segment 3:
Segment 4:

Potential/V, Current/A, Charge/C, Time/s

0.000, -8.381e-4, -4.190e-4, 5.000e-1
0.012, -2.396e-4, -2.810e-3, 6.500e+0
0.024, -1.116e-4, -3.783e-3, 1.250e+1
0.036, -3.801e-5, -4.188e-3, 1.850e+1
0.048, 3.838e-6, -4.274e-3, 2.450e+1
0.060, 3.490e-5, -4.142e-3, 3.050e+1
0.072, 5.714e-5, -3.859e-3, 3.650e+1
0.084, 7.501e-5, -3.456e-3, 4.250e+1
0.096, 9.056e-5, -2.955e-3, 4.850e+1
0.108, 1.054e-4, -2.362e-3, 5.450e+1
0.120, 1.181e-4, -1.688e-3, 6.050e+1
0.132, 1.313e-4, -9.356e-4, 6.650e+1
0.144, 1.431e-4, -1.092e-4, 7.250e+1
0.156, 1.534e-4, 7.836e-4, 7.850e+1
0.168, 1.611e-4, 1.730e-3, 8.450e+1
0.180, 1.675e-4, 2.719e-3, 9.050e+1
0.192, 1.703e-4, 3.735e-3, 9.650e+1
0.204, 1.719e-4, 4.764e-3, 1.025e+2
0.216, 1.724e-4, 5.798e-3, 1.085e+2
0.228, 1.732e-4, 6.834e-3, 1.145e+2
0.240, 1.725e-4, 7.873e-3, 1.205e+2
0.252, 1.721e-4, 8.907e-3, 1.265e+2
0.264, 1.721e-4, 9.939e-3, 1.325e+2
0.276, 1.721e-4, 1.097e-2, 1.385e+2
0.288, 1.708e-4, 1.200e-2, 1.445e+2
0.300, 1.704e-4, 1.302e-2, 1.505e+2
0.312, 1.699e-4, 1.404e-2, 1.565e+2
0.324, 1.694e-4, 1.506e-2, 1.625e+2
0.336, 1.682e-4, 1.607e-2, 1.685e+2
0.348, 1.668e-4, 1.708e-2, 1.745e+2
0.360, 1.651e-4, 1.807e-2, 1.805e+2
0.372, 1.633e-4, 1.906e-2, 1.865e+2
0.384, 1.611e-4, 2.003e-2, 1.925e+2
0.396, 1.607e-4, 2.100e-2, 1.985e+2
0.408, 1.593e-4, 2.195e-2, 2.045e+2
0.420, 1.595e-4, 2.291e-2, 2.105e+2
0.432, 1.598e-4, 2.387e-2, 2.165e+2
0.444, 1.623e-4, 2.484e-2, 2.225e+2
0.456, 1.652e-4, 2.582e-2, 2.285e+2
0.468, 1.680e-4, 2.682e-2, 2.345e+2
0.480, 1.724e-4, 2.784e-2, 2.405e+2
0.492, 1.797e-4, 2.890e-2, 2.465e+2
0.504, 1.865e-4, 3.000e-2, 2.525e+2
0.516, 1.964e-4, 3.115e-2, 2.585e+2
0.528, 2.067e-4, 3.236e-2, 2.645e+2
0.540, 2.179e-4, 3.364e-2, 2.705e+2
0.552, 2.296e-4, 3.498e-2, 2.765e+2
0.564, 2.407e-4, 3.640e-2, 2.825e+2
0.576, 2.486e-4, 3.787e-2, 2.885e+2
0.588, 2.546e-4, 3.938e-2, 2.945e+2
0.600, 2.571e-4, 4.092e-2, 3.005e+2
0.612, 2.579e-4, 4.247e-2, 3.065e+2
0.624, 2.582e-4, 4.401e-2, 3.125e+2
0.636, 2.598e-4, 4.557e-2, 3.185e+2
0.648, 2.625e-4, 4.713e-2, 3.245e+2
0.660, 2.689e-4, 4.873e-2, 3.305e+2
0.672, 2.778e-4, 5.037e-2, 3.365e+2
0.684, 2.885e-4, 5.207e-2, 3.425e+2
0.696, 3.019e-4, 5.384e-2, 3.485e+2
0.708, 3.199e-4, 5.571e-2, 3.545e+2
0.720, 3.426e-4, 5.770e-2, 3.605e+2
0.732, 3.702e-4, 5.985e-2, 3.665e+2
0.744, 4.050e-4, 6.217e-2, 3.725e+2
0.756, 4.525e-4, 6.475e-2, 3.785e+2
0.768, 5.136e-4, 6.765e-2, 3.845e+2
0.780, 6.127e-4, 7.103e-2, 3.905e+2
0.792, 7.570e-4, 7.515e-2, 3.965e+2
0.796, 6.325e-4, 1.816e-3, 4.025e+2
0.784, 3.503e-4, 4.602e-3, 4.085e+2
0.772, 1.881e-4, 6.133e-3, 4.145e+2
0.760, 9.368e-5, 6.930e-3, 4.205e+2
0.748, 3.842e-5, 7.297e-3, 4.265e+2
0.736, 6.437e-6, 7.416e-3, 4.325e+2
0.724, -1.436e-5, 7.384e-3, 4.385e+2
0.712, -2.583e-5, 7.256e-3, 4.445e+2
0.700, -3.296e-5, 7.077e-3, 4.505e+2
0.688, -3.614e-5, 6.866e-3, 4.565e+2
0.676, -3.814e-5, 6.645e-3, 4.625e+2
0.664, -4.077e-5, 6.407e-3, 4.685e+2
0.652, -4.177e-5, 6.157e-3, 4.745e+2
0.640, -4.273e-5, 5.905e-3, 4.805e+2
0.628, -4.337e-5, 5.646e-3, 4.865e+2
0.616, -4.530e-5, 5.378e-3, 4.925e+2
0.604, -4.532e-5, 5.105e-3, 4.985e+2
0.592, -4.701e-5, 4.830e-3, 5.045e+2
0.580, -5.000e-5, 4.539e-3, 5.105e+2
0.568, -5.284e-5, 4.228e-3, 5.165e+2
0.556, -5.721e-5, 3.898e-3, 5.225e+2
0.544, -6.009e-5, 3.544e-3, 5.285e+2
0.532, -6.127e-5, 3.178e-3, 5.345e+2
0.520, -6.434e-5, 2.799e-3, 5.405e+2
0.508, -6.754e-5, 2.402e-3, 5.465e+2
0.496, -6.996e-5, 1.986e-3, 5.525e+2
0.484, -7.019e-5, 1.565e-3, 5.585e+2
0.472, -6.953e-5, 1.148e-3, 5.645e+2
0.460, -7.021e-5, 7.284e-4, 5.705e+2
0.448, -7.022e-5, 3.071e-4, 5.765e+2
0.436, -7.069e-5, -1.167e-4, 5.825e+2
0.424, -7.098e-5, -5.404e-4, 5.885e+2
0.412, -7.247e-5, -9.705e-4, 5.945e+2
0.400, -7.354e-5, -1.407e-3, 6.005e+2
0.388, -7.396e-5, -1.852e-3, 6.065e+2
0.376, -7.566e-5, -2.302e-3, 6.125e+2
0.364, -7.791e-5, -2.762e-3, 6.185e+2
0.352, -8.259e-5, -3.245e-3, 6.245e+2
0.340, -8.436e-5, -3.749e-3, 6.305e+2
0.328, -8.972e-5, -4.271e-3, 6.365e+2
0.316, -9.536e-5, -4.828e-3, 6.425e+2
0.304, -9.995e-5, -5.414e-3, 6.485e+2
0.292, -1.055e-4, -6.034e-3, 6.545e+2
0.280, -1.113e-4, -6.686e-3, 6.605e+2
0.268, -1.196e-4, -7.378e-3, 6.665e+2
0.256, -1.306e-4, -8.131e-3, 6.725e+2
0.244, -1.402e-4, -8.947e-3, 6.785e+2
0.232, -1.502e-4, -9.816e-3, 6.845e+2
0.220, -1.638e-4, -1.076e-2, 6.905e+2
0.208, -1.755e-4, -1.178e-2, 6.965e+2
0.196, -1.917e-4, -1.289e-2, 7.025e+2
0.184, -2.045e-4, -1.408e-2, 7.085e+2
0.172, -2.242e-4, -1.536e-2, 7.145e+2
0.160, -2.459e-4, -1.678e-2, 7.205e+2
0.148, -2.668e-4, -1.832e-2, 7.265e+2
0.136, -2.891e-4, -1.999e-2, 7.325e+2
0.124, -3.111e-4, -2.180e-2, 7.385e+2
0.112, -3.272e-4, -2.371e-2, 7.445e+2
0.100, -3.459e-4, -2.574e-2, 7.505e+2
0.088, -3.637e-4, -2.787e-2, 7.565e+2
0.076, -3.811e-4, -3.011e-2, 7.625e+2
0.064, -3.945e-4, -3.244e-2, 7.685e+2
0.052, -4.099e-4, -3.486e-2, 7.745e+2
0.040, -4.269e-4, -3.737e-2, 7.805e+2
0.028, -4.437e-4, -3.999e-2, 7.865e+2
0.016, -4.634e-4, -4.271e-2, 7.925e+2
0.004, -4.866e-4, -4.557e-2, 7.985e+2
0.008, -2.016e-4, -1.313e-3, 8.045e+2
0.020, -1.023e-4, -2.166e-3, 8.105e+2
0.032, -4.187e-5, -2.577e-3, 8.165e+2
0.044, -1.440e-6, -2.683e-3, 8.225e+2
0.056, 2.580e-5, -2.596e-3, 8.285e+2
0.068, 4.756e-5, -2.368e-3, 8.345e+2
0.080, 6.330e-5, -2.028e-3, 8.405e+2
0.092, 7.809e-5, -1.600e-3, 8.465e+2
0.104, 9.067e-5, -1.090e-3, 8.525e+2
0.116, 1.028e-4, -5.078e-4, 8.585e+2
0.128, 1.133e-4, 1.445e-4, 8.645e+2
0.140, 1.254e-4, 8.643e-4, 8.705e+2
0.152, 1.353e-4, 1.650e-3, 8.765e+2
0.164, 1.437e-4, 2.490e-3, 8.825e+2
0.176, 1.496e-4, 3.372e-3, 8.885e+2
0.188, 1.540e-4, 4.284e-3, 8.945e+2
0.200, 1.561e-4, 5.214e-3, 9.005e+2
0.212, 1.580e-4, 6.157e-3, 9.065e+2
0.224, 1.589e-4, 7.108e-3, 9.125e+2
0.236, 1.594e-4, 8.065e-3, 9.185e+2
0.248, 1.600e-4, 9.023e-3, 9.245e+2
0.260, 1.604e-4, 9.984e-3, 9.305e+2
0.272, 1.607e-4, 1.095e-2, 9.365e+2
0.284, 1.613e-4, 1.192e-2, 9.425e+2
0.296, 1.609e-4, 1.288e-2, 9.485e+2
0.308, 1.613e-4, 1.385e-2, 9.545e+2
0.320, 1.601e-4, 1.481e-2, 9.605e+2
0.332, 1.594e-4, 1.577e-2, 9.665e+2
0.344, 1.577e-4, 1.672e-2, 9.725e+2
0.356, 1.570e-4, 1.767e-2, 9.785e+2
0.368, 1.555e-4, 1.860e-2, 9.845e+2
0.380, 1.540e-4, 1.953e-2, 9.905e+2
0.392, 1.535e-4, 2.045e-2, 9.965e+2
0.404, 1.526e-4, 2.137e-2, 1.003e+3
0.416, 1.519e-4, 2.228e-2, 1.009e+3
0.428, 1.533e-4, 2.320e-2, 1.015e+3
0.440, 1.541e-4, 2.412e-2, 1.021e+3
0.452, 1.568e-4, 2.505e-2, 1.027e+3
0.464, 1.604e-4, 2.601e-2, 1.033e+3
0.476, 1.657e-4, 2.698e-2, 1.039e+3
0.488, 1.717e-4, 2.800e-2, 1.045e+3
0.500, 1.789e-4, 2.905e-2, 1.051e+3
0.512, 1.874e-4, 3.015e-2, 1.057e+3
0.524, 1.966e-4, 3.130e-2, 1.063e+3
0.536, 2.070e-4, 3.252e-2, 1.069e+3
0.548, 2.175e-4, 3.379e-2, 1.075e+3
0.560, 2.273e-4, 3.513e-2, 1.081e+3
0.572, 2.368e-4, 3.652e-2, 1.087e+3
0.584, 2.410e-4, 3.796e-2, 1.093e+3
0.596, 2.436e-4, 3.941e-2, 1.099e+3
0.608, 2.436e-4, 4.087e-2, 1.105e+3
0.620, 2.454e-4, 4.234e-2, 1.111e+3
0.632, 2.474e-4, 4.382e-2, 1.117e+3
0.644, 2.522e-4, 4.532e-2, 1.123e+3
0.656, 2.588e-4, 4.685e-2, 1.129e+3
0.668, 2.678e-4, 4.843e-2, 1.135e+3
0.680, 2.783e-4, 5.007e-2, 1.141e+3
0.692, 2.928e-4, 5.179e-2, 1.147e+3
0.704, 3.097e-4, 5.360e-2, 1.153e+3
0.716, 3.298e-4, 5.552e-2, 1.159e+3
0.728, 3.547e-4, 5.757e-2, 1.165e+3
0.740, 3.896e-4, 5.981e-2, 1.171e+3
0.752, 4.344e-4, 6.229e-2, 1.177e+3
0.764, 4.960e-4, 6.508e-2, 1.183e+3
0.776, 5.876e-4, 6.834e-2, 1.189e+3
0.788, 7.224e-4, 7.228e-2, 1.195e+3
0.800, 8.759e-4, 4.379e-4, 1.201e+3
0.788, 4.431e-4, 4.007e-3, 1.207e+3
0.776, 2.401e-4, 5.956e-3, 1.213e+3
0.764, 1.205e-4, 6.977e-3, 1.219e+3
0.752, 5.018e-5, 7.451e-3, 1.225e+3
0.740, 9.007e-6, 7.608e-3, 1.231e+3
0.728, -1.493e-5, 7.578e-3, 1.237e+3
0.716, -2.983e-5, 7.437e-3, 1.243e+3
0.704, -3.792e-5, 7.229e-3, 1.249e+3
0.692, -4.439e-5, 6.980e-3, 1.255e+3
0.680, -4.836e-5, 6.701e-3, 1.261e+3
0.668, -5.239e-5, 6.394e-3, 1.267e+3
0.656, -5.248e-5, 6.078e-3, 1.273e+3
0.644, -5.376e-5, 5.763e-3, 1.279e+3
0.632, -5.404e-5, 5.437e-3, 1.285e+3
0.620, -5.353e-5, 5.115e-3, 1.291e+3
0.608, -5.397e-5, 4.793e-3, 1.297e+3
0.596, -5.698e-5, 4.462e-3, 1.303e+3
0.584, -5.737e-5, 4.117e-3, 1.309e+3
0.572, -6.061e-5, 3.763e-3, 1.315e+3
0.560, -6.203e-5, 3.390e-3, 1.321e+3
0.548, -6.498e-5, 3.013e-3, 1.327e+3
0.536, -6.851e-5, 2.612e-3, 1.333e+3
0.524, -7.028e-5, 2.187e-3, 1.339e+3
0.512, -7.137e-5, 1.766e-3, 1.345e+3
0.500, -7.337e-5, 1.332e-3, 1.351e+3
0.488, -7.447e-5, 8.834e-4, 1.357e+3
0.476, -7.436e-5, 4.400e-4, 1.363e+3
0.464, -7.381e-5, -7.348e-6, 1.369e+3
0.452, -7.265e-5, -4.451e-4, 1.375e+3
0.440, -7.441e-5, -8.873e-4, 1.381e+3
0.428, -7.601e-5, -1.339e-3, 1.387e+3
0.416, -7.477e-5, -1.794e-3, 1.393e+3
0.404, -7.620e-5, -2.245e-3, 1.399e+3
0.392, -7.753e-5, -2.707e-3, 1.405e+3
0.380, -7.819e-5, -3.171e-3, 1.411e+3
0.368, -8.164e-5, -3.652e-3, 1.417e+3
0.356, -8.468e-5, -4.153e-3, 1.423e+3
0.344, -8.554e-5, -4.661e-3, 1.429e+3
0.332, -8.971e-5, -5.187e-3, 1.435e+3
0.320, -9.275e-5, -5.735e-3, 1.441e+3
0.308, -9.790e-5, -6.308e-3, 1.447e+3
0.296, -1.044e-4, -6.916e-3, 1.453e+3
0.284, -1.104e-4, -7.563e-3, 1.459e+3
0.272, -1.169e-4, -8.245e-3, 1.465e+3
0.260, -1.263e-4, -8.976e-3, 1.471e+3
0.248, -1.377e-4, -9.769e-3, 1.477e+3
0.236, -1.494e-4, -1.063e-2, 1.483e+3
0.224, -1.586e-4, -1.156e-2, 1.489e+3
0.212, -1.677e-4, -1.254e-2, 1.495e+3
0.200, -1.787e-4, -1.358e-2, 1.501e+3
0.188, -1.919e-4, -1.469e-2, 1.507e+3
0.176, -2.078e-4, -1.589e-2, 1.513e+3
0.164, -2.258e-4, -1.720e-2, 1.519e+3
0.152, -2.452e-4, -1.861e-2, 1.525e+3
0.140, -2.648e-4, -2.015e-2, 1.531e+3
0.128, -2.817e-4, -2.179e-2, 1.537e+3
0.116, -3.026e-4, -2.355e-2, 1.543e+3
0.104, -3.258e-4, -2.544e-2, 1.549e+3
0.092, -3.384e-4, -2.744e-2, 1.555e+3
0.080, -3.598e-4, -2.954e-2, 1.561e+3
0.068, -3.716e-4, -3.173e-2, 1.567e+3
0.056, -3.904e-4, -3.402e-2, 1.573e+3
0.044, -4.100e-4, -3.643e-2, 1.579e+3
0.032, -4.269e-4, -3.894e-2, 1.585e+3
0.020, -4.457e-4, -4.156e-2, 1.591e+3
0.008, -4.692e-4, -4.430e-2, 1.597e+3
0.001, -4.825e-4, -4.597e-2, 1.600e+3